<Bundle xmlns="http://hl7.org/fhir">
    <id value="3ce8a8a0-a72e-45c5-92e9-3e3a6044917f"/>
    <meta>
        <lastUpdated value="2017-04-13T12:54:25.000+05:30"/>
    </meta>
    <type value="collection"/>
    <entry>
        <fullUrl value="urn:uuid:8250f304-37ae-4a15-ac1d-bb559d85a36f"/>
        <resource>
            <Composition xmlns="http://hl7.org/fhir">
                <identifier>
                    <value value="urn:uuid:8250f304-37ae-4a15-ac1d-bb559d85a36f"/>
                </identifier>
                <date value="2017-04-13T12:54:25.000+05:30"/>
                <type>
                    <coding>
                        <system value="http://hl7.org/fhir/vs/doc-typecodes"/>
                        <code value="51899-3"/>
                        <display value="Details Document"/>
                    </coding>
                </type>
                <title value="Patient Clinical Encounter"/>
                <status value="final"/>
                <confidentiality value="N"/>
                <subject>
                    <reference value="http://172.18.46.199:8081/api/v1/patients/98001175044"/>
                    <display value="98001175044"/>
                </subject>
                <author>
                    <reference value="http://hrmtest.dghs.gov.bd/api/1.0/facilities/10000137.json"/>
                </author>
                <encounter>
                    <reference value="urn:uuid:763dee64-44d5-4820-b9c0-6c51bf1d3fa9"/>
                </encounter>
                <section>
                    <entry>
                        <reference value="urn:uuid:763dee64-44d5-4820-b9c0-6c51bf1d3fa9"/>
                        <display value="Encounter"/>
                    </entry>
                </section>
                <section>
                    <entry>
                        <reference value="urn:uuid:2290e403-1233-4f26-a604-c656677d54c3"/>
                        <display value="Procedure Request"/>
                    </entry>
                </section>
            </Composition>
        </resource>
    </entry>
    <entry>
        <fullUrl value="urn:uuid:763dee64-44d5-4820-b9c0-6c51bf1d3fa9"/>
        <resource>
            <Encounter xmlns="http://hl7.org/fhir">
                <identifier>
                    <value value="urn:uuid:763dee64-44d5-4820-b9c0-6c51bf1d3fa9"/>
                </identifier>
                <status value="finished"/>
                <class value="outpatient"/>
                <type>
                    <text value="OPD"/>
                </type>
                <patient>
                    <reference value="http://172.18.46.199:8081/api/v1/patients/98001175044"/>
                    <display value="98001175044"/>
                </patient>
                <participant>
                    <individual>
                        <reference value="http://172.18.46.199:8084/api/1.0/providers/24.json"/>
                    </individual>
                </participant>
                <period>
                    <start value="2017-04-13T12:44:37.000+05:30"/>
                </period>
                <serviceProvider>
                    <reference value="http://hrmtest.dghs.gov.bd/api/1.0/facilities/10000137.json"/>
                </serviceProvider>
            </Encounter>
        </resource>
    </entry>
    <entry>
        <fullUrl value="urn:uuid:2290e403-1233-4f26-a604-c656677d54c3"/>
        <resource>
            <ProcedureRequest xmlns="http://hl7.org/fhir">
                <identifier>
                    <value value="urn:uuid:2290e403-1233-4f26-a604-c656677d54c3"/>
                </identifier>
                <subject>
                    <reference value="http://172.18.46.199:8081/api/v1/patients/98001175044"/>
                    <display value="98001175044"/>
                </subject>
                <code>
                    <coding>
                        <system value="http://tr.com"/>
                        <code value="f73b4c1a-88b1-11e5-8d1e-005056b0145c"/>
                        <display value="Extraction of Lower Tooth Multiple"/>
                    </coding>
                </code>
                <encounter>
                    <reference value="urn:uuid:763dee64-44d5-4820-b9c0-6c51bf1d3fa9"/>
                </encounter>
                <status value="requested"/>
                <orderedOn value="2017-04-13T12:54:25+05:30"/>
                <orderer>
                    <reference value="http://172.18.46.199:8084/api/1.0/providers/24.json"/>
                </orderer>
                <notes>
                    <text value="Some Notes"/>
                </notes>
            </ProcedureRequest>
        </resource>
    </entry>
</Bundle>
