<Bundle xmlns="http://hl7.org/fhir">
    <id value="7b754c24-acbe-45f5-8597-54985f086c3b"/>
    <meta>
        <lastUpdated value="2015-08-27T17:09:43.000+05:30"/>
    </meta>
    <type value="collection"/>
    <entry>
        <fullUrl value="urn:uuid:aa82958c-497f-4ff9-a6d1-ff08924493db" />
        <resource>
            <Composition xmlns="http://hl7.org/fhir">
                <id value="aa82958c-497f-4ff9-a6d1-ff08924493db"/>
                <identifier>
                    <value value="urn:uuid:aa82958c-497f-4ff9-a6d1-ff08924493db"/>
                </identifier>
                <date value="2015-08-27T17:09:43.000+05:30"/>
                <type>
                    <coding>
                        <system value="http://hl7.org/fhir/vs/doc-typecodes"/>
                        <code value="51899-3"/>
                        <display value="Details Document"/>
                    </coding>
                </type>
                <title value="Patient Clinical Encounter" />
                <status value="final"/>
                <confidentiality value="N"/>
                <subject>
                    <reference value="http://172.18.46.56:8081/api/v1/patients/98101039678"/>
                    <display value="98101039678"/>
                </subject>
                <author>
                    <reference value="http://hrmtest.dghs.gov.bd/api/1.0/facilities/10019841.json"/>
                </author>
                <encounter>
                    <reference value="urn:uuid:ff9a0b75-5252-4a65-bb5e-84f1d9fb58c0"/>
                </encounter>
                <section>
                    <entry>
                        <reference value="urn:uuid:ff9a0b75-5252-4a65-bb5e-84f1d9fb58c0"/>
                        <display value="Encounter"/>
                    </entry>
                </section>
                <section>
                    <entry>
                        <reference value="urn:uuid:e2d48247-673c-4181-acd1-4497671d4523"/>
                        <display value="Pulse"/>
                    </entry>
                </section>
                <section>
                    <entry>
                        <reference value="urn:uuid:56b0a203-9215-40ea-a6a0-b1d625d100c0"/>
                        <display value="Vitals"/>
                    </entry>
                </section>
            </Composition>
        </resource>
    </entry>
    <entry>
        <fullUrl value="urn:uuid:ff9a0b75-5252-4a65-bb5e-84f1d9fb58c0" />
        <resource>
            <Encounter xmlns="http://hl7.org/fhir">
                <id value="ff9a0b75-5252-4a65-bb5e-84f1d9fb58c0"/>
                <identifier>
                    <value value="urn:uuid:ff9a0b75-5252-4a65-bb5e-84f1d9fb58c0"/>
                </identifier>
                <status value="finished"/>
                <class value="outpatient"/>
                <type>
                    <text value="OPD"/>
                </type>
                <patient>
                    <reference value="http://172.18.46.56:8081/api/v1/patients/98101039678"/>
                    <display value="98101039678"/>
                </patient>
                <participant>
                    <individual>
                        <reference value="http://hrmtest.dghs.gov.bd/api/1.0/providers/812.json"/>
                    </individual>
                </participant>
                <serviceProvider>
                    <reference value="http://hrmtest.dghs.gov.bd/api/1.0/facilities/10019841.json"/>
                </serviceProvider>
            </Encounter>
        </resource>
    </entry>
    <entry>
        <fullUrl value="urn:uuid:e2d48247-673c-4181-acd1-4497671d4523" />
        <resource>
            <Observation xmlns="http://hl7.org/fhir">
                <id value="e2d48247-673c-4181-acd1-4497671d4523"/>
                <code>
                    <coding>
                        <system value="http://tr.com"/>
                        <code value="103"/>
                        <display value="Pulse"/>
                    </coding>
                </code>
                <valueQuantity>
                    <value value="75.0"/>
                </valueQuantity>
                <status value="preliminary"/>
                <identifier>
                    <value value="urn:uuid:e2d48247-673c-4181-acd1-4497671d4523"/>
                </identifier>
                <subject>
                    <reference value="http://172.18.46.56:8081/api/v1/patients/98101039678"/>
                    <display value="98101039678"/>
                </subject>
                <encounter>
                    <reference value="urn:uuid:ff9a0b75-5252-4a65-bb5e-84f1d9fb58c0"/>
                </encounter>
                <performer>
                    <reference value="http://hrmtest.dghs.gov.bd/api/1.0/providers/812.json"/>
                </performer>
            </Observation>
        </resource>
    </entry>
    <entry>
        <fullUrl value="urn:uuid:56b0a203-9215-40ea-a6a0-b1d625d100c0" />
        <resource>
            <Observation xmlns="http://hl7.org/fhir">
                <id value="56b0a203-9215-40ea-a6a0-b1d625d100c0"/>
                <code>
                    <coding>
                        <display value="Vitals"/>
                    </coding>
                </code>
                <status value="preliminary"/>
                <identifier>
                    <value value="urn:uuid:56b0a203-9215-40ea-a6a0-b1d625d100c0"/>
                </identifier>
                <subject>
                    <reference value="http://172.18.46.56:8081/api/v1/patients/98101039678"/>
                    <display value="98101039678"/>
                </subject>
                <encounter>
                    <reference value="urn:uuid:ff9a0b75-5252-4a65-bb5e-84f1d9fb58c0"/>
                </encounter>
                <related>
                    <type value="has-member"/>
                    <target>
                        <reference value="urn:uuid:e2d48247-673c-4181-acd1-4497671d4523"/>
                    </target>
                </related>
                <performer>
                    <reference value="http://hrmtest.dghs.gov.bd/api/1.0/providers/812.json"/>
                </performer>
            </Observation>
        </resource>
    </entry>
</Bundle>
