<Bundle xmlns="http://hl7.org/fhir">
    <id value="43f7449e-01fd-4532-ab9e-06d2da2d0f43"/>
    <meta>
        <lastUpdated value="2016-02-03T15:30:19.000+05:30"/>
    </meta>
    <type value="collection"/>
    <entry>
        <fullUrl value="urn:uuid:072657ca-7d92-4fc8-84f7-454cb96609ad"/>
        <resource>
            <Composition xmlns="http://hl7.org/fhir">
                <identifier>
                    <value value="urn:uuid:072657ca-7d92-4fc8-84f7-454cb96609ad"/>
                </identifier>
                <date value="2016-02-03T15:30:19.000+05:30"/>
                <type>
                    <coding>
                        <system value="http://hl7.org/fhir/vs/doc-typecodes"/>
                        <code value="51899-3"/>
                        <display value="Details Document"/>
                    </coding>
                </type>
                <title value="Patient Clinical Encounter"/>
                <status value="final"/>
                <confidentiality value="N"/>
                <subject>
                    <reference value="http://172.18.46.199:8081/api/v1/patients/98001175044"/>
                    <display value="98001175044"/>
                </subject>
                <author>
                    <reference value="http://172.18.46.199:8084/api/1.0/facilities/10019841.json"/>
                </author>
                <encounter>
                    <reference value="urn:uuid:763dee64-44d5-4820-b9c0-6c51bf1d3fa9"/>
                </encounter>
                <section>
                    <entry>
                        <reference value="urn:uuid:763dee64-44d5-4820-b9c0-6c51bf1d3fa9"/>
                        <display value="Encounter"/>
                    </entry>
                </section>
                <section>
                    <entry>
                        <reference value="urn:uuid:f3703dad-7e1e-47b6-9952-4ca5774fb365"/>
                        <display value="Procedure Request"/>
                    </entry>
                </section>
                <section>
                    <entry>
                        <reference value="urn:uuid:27265c7e-9116-4c0e-b6b7-ae67b0ad7efd"/>
                        <display value="Procedure Request"/>
                    </entry>
                </section>
            </Composition>
        </resource>
    </entry>
    <entry>
        <fullUrl value="urn:uuid:763dee64-44d5-4820-b9c0-6c51bf1d3fa9"/>
        <resource>
            <Encounter xmlns="http://hl7.org/fhir">
                <identifier>
                    <value value="urn:uuid:763dee64-44d5-4820-b9c0-6c51bf1d3fa9"/>
                </identifier>
                <status value="finished"/>
                <class value="outpatient"/>
                <type>
                    <text value="Consultation"/>
                </type>
                <patient>
                    <reference value="http://172.18.46.199:8081/api/v1/patients/98001175044"/>
                    <display value="98001175044"/>
                </patient>
                <participant>
                    <individual>
                        <reference value="http://172.18.46.199:8084/api/1.0/providers/24.json"/>
                    </individual>
                </participant>
                <serviceProvider>
                    <reference value="http://172.18.46.199:8084/api/1.0/facilities/10019841.json"/>
                </serviceProvider>
            </Encounter>
        </resource>
    </entry>
    <entry>
        <fullUrl value="urn:uuid:f3703dad-7e1e-47b6-9952-4ca5774fb365"/>
        <resource>
            <ProcedureRequest xmlns="http://hl7.org/fhir">
                <identifier>
                    <value value="urn:uuid:f3703dad-7e1e-47b6-9952-4ca5774fb365"/>
                </identifier>
                <subject>
                    <reference value="http://172.18.46.199:8081/api/v1/patients/98001175044"/>
                    <display value="98001175044"/>
                </subject>
                <code>
                    <coding>
                        <system value="http://tr.com"/>
                        <code value="101"/>
                        <display value="Colposcopy"/>
                    </coding>
                </code>
                <encounter>
                    <reference value="urn:uuid:763dee64-44d5-4820-b9c0-6c51bf1d3fa9"/>
                </encounter>
                <status value="requested"/>
                <orderedOn value="2016-02-03T15:30:20+05:30"/>
                <orderer>
                    <reference value="http://172.18.46.199:8084/api/1.0/providers/24.json"/>
                </orderer>
                <notes>
                    <text value="Some Notes"/>
                </notes>
            </ProcedureRequest>
        </resource>
    </entry>
    <entry>
        <fullUrl value="urn:uuid:27265c7e-9116-4c0e-b6b7-ae67b0ad7efd"/>
        <resource>
            <ProcedureRequest xmlns="http://hl7.org/fhir">
                <extension url="https://sharedhealth.atlassian.net/wiki/display/docs/fhir-extensions#PreviousProcedureRequest">
                    <valueString value="urn:uuid:f3703dad-7e1e-kj6t-9952-4ca5774fb365"/>
                </extension>
                <identifier>
                    <value value="urn:uuid:27265c7e-9116-4c0e-b6b7-ae67b0ad7efd"/>
                </identifier>
                <subject>
                    <reference value="http://172.18.46.199:8081/api/v1/patients/98001175044"/>
                    <display value="98001175044"/>
                </subject>
                <code>
                    <coding>
                        <system value="http://tr.com"/>
                        <code value="101"/>
                        <display value="Colposcopy"/>
                    </coding>
                </code>
                <encounter>
                    <reference value="urn:uuid:763dee64-44d5-4820-b9c0-6c51bf1d3fa9"/>
                </encounter>
                <status value="suspended"/>
                <orderedOn value="2016-02-03T15:32:39+05:30"/>
                <orderer>
                    <reference value="http://172.18.46.199:8084/api/1.0/providers/24.json"/>
                </orderer>
                <notes>
                    <text value="Some Notes"/>
                </notes>
            </ProcedureRequest>
        </resource>
    </entry>
</Bundle>
