<Bundle xmlns="http://hl7.org/fhir">
    <id value="fe3e46cb-4c01-47fd-b9e8-b5a7f89854fe"/>
    <meta>
        <lastUpdated value="2015-08-25T17:25:34.000+05:30"/>
    </meta>
    <type value="collection"/>
    <entry>
        <fullUrl value="urn:uuid:63185c4b-e29e-4fb7-a090-5cfd80dbdb12"/>
        <resource>
            <Composition xmlns="http://hl7.org/fhir">
                <id value="63185c4b-e29e-4fb7-a090-5cfd80dbdb12"/>
                <identifier>
                    <value value="urn:uuid:63185c4b-e29e-4fb7-a090-5cfd80dbdb12"/>
                </identifier>
                <date value="2015-08-25T17:25:34.000+05:30"/>
                <type>
                    <coding>
                        <system value="http://hl7.org/fhir/vs/doc-typecodes"/>
                        <code value="51899-3"/>
                        <display value="Details Document"/>
                    </coding>
                </type>
                <title value="Patient Clinical Encounter"/>
                <status value="final"/>
                <confidentiality value="N"/>
                <subject>
                    <reference value="http://www.mci.com/patients/98104750156"/>
                    <display value="98104750156"/>
                </subject>
                <author>
                    <reference value="http://www.fr.com/facilities/10019841.json"/>
                </author>
                <encounter>
                    <reference value="urn:uuid:de711fc8-3b1b-4089-813e-1ae8b3936ea8"/>
                </encounter>
                <section>
                    <entry>
                        <reference value="urn:uuid:de711fc8-3b1b-4089-813e-1ae8b3936ea8"/>
                        <display value="Encounter"/>
                    </entry>
                </section>
                <section>
                    <entry>
                        <reference value="urn:uuid:b0a0aaba-23d6-42e9-912e-635f3a8a4b0a"/>
                        <display value="Immunization"/>
                    </entry>
                </section>
            </Composition>
        </resource>
    </entry>
    <entry>
        <fullUrl value="urn:uuid:de711fc8-3b1b-4089-813e-1ae8b3936ea8"/>
        <resource>
            <Encounter xmlns="http://hl7.org/fhir">
                <id value="de711fc8-3b1b-4089-813e-1ae8b3936ea8"/>
                <identifier>
                    <value value="urn:uuid:de711fc8-3b1b-4089-813e-1ae8b3936ea8"/>
                </identifier>
                <status value="finished"/>
                <class value="outpatient"/>
                <type>
                    <text value="OPD"/>
                </type>
                <patient>
                    <reference value="http://www.mci.com/patients/98104750156"/>
                    <display value="98104750156"/>
                </patient>
                <participant>
                    <individual>
                        <reference value="http://www.pr.com/providers/812.json"/>
                    </individual>
                </participant>
                <serviceProvider>
                    <reference value="http://www.fr.com/facilities/10019841.json"/>
                </serviceProvider>
            </Encounter>
        </resource>
    </entry>
    <entry>
        <fullUrl value="urn:uuid:b0a0aaba-23d6-42e9-912e-635f3a8a4b0a"/>
        <resource>
            <Immunization xmlns="http://hl7.org/fhir">
                <id value="b0a0aaba-23d6-42e9-912e-635f3a8a4b0a"/>
                <identifier>
                    <value value="urn:uuid:b0a0aaba-23d6-42e9-912e-635f3a8a4b0a"/>
                </identifier>
                <status value="in-progress"/>
                <date value="2015-08-17T00:00:00.000+05:30"/>
                <vaccineCode>
                    <coding>
                        <system value="http://tr.com"/>
                        <code value="ABC"/>
                        <display value="Paracetamol"/>
                    </coding>
                </vaccineCode>
                <patient>
                    <reference value="http://www.mci.com/patients/98104750156"/>
                    <display value="98104750156"/>
                </patient>
                <wasNotGiven value="false"/>
                <reported value="true"/>

                <requester>
                    <reference value="http://www.pr.com/providers/812.json"/>
                </requester>
                <encounter>
                    <reference value="urn:uuid:de711fc8-3b1b-4089-813e-1ae8b3936ea8"/>
                </encounter>
                <doseQuantity>
                    <value value="100.0"/>
                    <system value="http://tr.com"/>
                    <code value="mg"/>
                </doseQuantity>
                <explanation>
                    <reason>
                        <coding>
                            <system value="http://tr.com"/>
                            <code value="281657000"/>
                            <display value="Travel vaccinations"/>
                        </coding>
                    </reason>
                    <reasonNotGiven>
                        <coding>
                            <system value="http://tr.com"/>
                            <code value="PATOBJ"/>
                            <display value="patient objection"/>
                        </coding>
                    </reasonNotGiven>
                </explanation>
                <route>
                    <coding>
                        <system value="http://tr.com"/>
                        <code value="ORAL-X"/>
                        <display value="Oral"/>
                    </coding>
                </route>
                <note>
                    <text value="immunization notes"/>
                </note>
            </Immunization>
        </resource>
    </entry>
</Bundle>
