<Bundle xmlns="http://hl7.org/fhir">
    <id value="9122262f-45a7-4ee0-8614-238b98dd302e"/>
    <meta>
        <lastUpdated value="2015-08-31T17:03:08.000+05:30"/>
    </meta>
    <type value="collection"/>
    <entry>
        <fullUrl value="urn:uuid:199c90a7-6c15-4c8e-8681-2659526fee5e"/>
        <resource>
            <Composition xmlns="http://hl7.org/fhir">
                <id value="199c90a7-6c15-4c8e-8681-2659526fee5e"/>
                <identifier>
                    <value value="urn:uuid:199c90a7-6c15-4c8e-8681-2659526fee5e"/>
                </identifier>
                <date value="2015-08-31T17:03:08.000+05:30"/>
                <type>
                    <coding>
                        <system value="http://hl7.org/fhir/vs/doc-typecodes"/>
                        <code value="51899-3"/>
                        <display value="Details Document"/>
                    </coding>
                </type>
                <title value="Patient Clinical Encounter" />
                <status value="final"/>
                <confidentiality value="N"/>
                <subject>
                    <reference value="http://172.18.46.56:8081/api/v1/patients/98101039678"/>
                    <display value="98101039678"/>
                </subject>
                <author>
                    <reference value="http://hrmtest.dghs.gov.bd/api/1.0/facilities/10019841.json"/>
                </author>
                <encounter>
                    <reference value="urn:uuid:85c310fd-1f9d-4c1e-a16b-4e53a636c46d"/>
                </encounter>
                <section>
                    <entry>
                        <reference value="urn:uuid:85c310fd-1f9d-4c1e-a16b-4e53a636c46d"/>
                        <display value="Encounter"/>
                    </entry>
                </section>
                <section>
                    <entry>
                        <reference value="urn:uuid:b052c4dc-d425-4ef7-90f8-0376d6e9e29a"/>
                        <display value="Hemoglobin"/>
                    </entry>
                </section>
                <section>
                    <entry>
                        <reference value="urn:uuid:2f933127-feb9-4131-be06-4c92980d0b7b"/>
                        <display value="Diagnostic Report"/>
                    </entry>
                </section>
            </Composition>
        </resource>
    </entry>
    <entry>
        <fullUrl value="urn:uuid:85c310fd-1f9d-4c1e-a16b-4e53a636c46d"/>
        <resource>
            <Encounter xmlns="http://hl7.org/fhir">
                <id value="85c310fd-1f9d-4c1e-a16b-4e53a636c46d"/>
                <identifier>
                    <value value="urn:uuid:85c310fd-1f9d-4c1e-a16b-4e53a636c46d"/>
                </identifier>
                <status value="finished"/>
                <class value="outpatient"/>
                <type>
                    <text value="LAB_RESULT"/>
                </type>
                <patient>
                    <reference value="http://172.18.46.56:8081/api/v1/patients/98101039678"/>
                    <display value="98101039678"/>
                </patient>
                <serviceProvider>
                    <reference value="http://hrmtest.dghs.gov.bd/api/1.0/facilities/10019841.json"/>
                </serviceProvider>
            </Encounter>
        </resource>
    </entry>
    <entry>
        <fullUrl value="urn:uuid:b052c4dc-d425-4ef7-90f8-0376d6e9e29a"/>
        <resource>
            <Observation xmlns="http://hl7.org/fhir">
                <id value="b052c4dc-d425-4ef7-90f8-0376d6e9e29a"/>
                <code>
                    <coding>
                        <system value="http://tr.com"/>
                        <code value="HEM"/>
                        <display value="Hemoglobin"/>
                    </coding>
                </code>
                <valueQuantity>
                    <value value="20.0"/>
                </valueQuantity>
                <comments value="changed"/>
                <status value="final"/>
                <identifier>
                    <value value="urn:uuid:b052c4dc-d425-4ef7-90f8-0376d6e9e29a"/>
                </identifier>
                <subject>
                    <reference value="http://172.18.46.56:8081/api/v1/patients/98101039678"/>
                    <display value="98101039678"/>
                </subject>
                <encounter>
                    <reference value="urn:uuid:85c310fd-1f9d-4c1e-a16b-4e53a636c46d"/>
                </encounter>
                <performer>
                    <reference value="http://pr.com/api/1.0/providers/812.json"/>
                </performer>
            </Observation>
        </resource>
    </entry>
    <entry>
        <fullUrl value="urn:uuid:2f933127-feb9-4131-be06-4c92980d0b7b"/>
        <resource>
            <DiagnosticReport xmlns="http://hl7.org/fhir">
                <id value="2f933127-feb9-4131-be06-4c92980d0b7b"/>
                <category>
                    <coding>
                        <system value="http://hl7.org/fhir/v2/0074"/>
                        <code value="LAB"/>
                        <display value="Laboratory"/>
                    </coding>
                </category>
                <code>
                    <coding>
                        <system value="http://tr.com"/>
                        <code value="HEM"/>
                        <display value="Hemoglobin"/>
                    </coding>
                </code>
                <status value="final"/>
                <issued value="2015-08-31T17:14:30.000+05:30"/>
                <subject>
                    <reference value="http://172.18.46.56:8081/api/v1/patients/98101039678"/>
                    <display value="98101039678"/>
                </subject>
                <encounter>
                    <reference value="urn:uuid:85c310fd-1f9d-4c1e-a16b-4e53a636c46d"/>
                </encounter>
                <identifier>
                    <value value="urn:uuid:2f933127-feb9-4131-be06-4c92980d0b7b"/>
                </identifier>
                <request>
                    <reference value="http://shr.com/patients/hid/encounters/shrEncounterId3"/>
                </request>
                <effectiveDateTime value="2015-08-31T17:03:09.000+05:30"/>
                <performer>
                    <reference value="http://pr.com/api/1.0/providers/812.json"/>
                </performer>
                <result>
                    <reference value="urn:uuid:b052c4dc-d425-4ef7-90f8-0376d6e9e29a"/>
                </result>
            </DiagnosticReport>
        </resource>
    </entry>
</Bundle>
