<Bundle xmlns="http://hl7.org/fhir">
    <id value="115f73b2-1c8e-400f-ab09-5229c3732902"/>
    <meta>
        <lastUpdated value="2017-04-04T14:38:28.000+05:30"/>
    </meta>
    <type value="collection"/>
    <entry>
        <fullUrl value="urn:uuid:0bbb45f7-20e8-4e57-abfb-750cfc4f1932"/>
        <resource>
            <Composition xmlns="http://hl7.org/fhir">
                <identifier>
                    <value value="urn:uuid:0bbb45f7-20e8-4e57-abfb-750cfc4f1932"/>
                </identifier>
                <date value="2017-04-04T14:38:28.000+05:30"/>
                <type>
                    <coding>
                        <system value="http://hl7.org/fhir/vs/doc-typecodes"/>
                        <code value="51899-3"/>
                        <display value="Details Document"/>
                    </coding>
                </type>
                <title value="Patient Clinical Encounter"/>
                <status value="final"/>
                <confidentiality value="N"/>
                <subject>
                    <reference value="https://mci-showcase.twhosted.com/api/default/patients/98001462467"/>
                    <display value="98001462467"/>
                </subject>
                <author>
                    <reference value="http://hrmtest.dghs.gov.bd/api/1.0/facilities/10000137.json"/>
                </author>
                <encounter>
                    <reference value="urn:uuid:df0b047a-6b5f-4953-a37d-e95532f540aa"/>
                </encounter>
                <section>
                    <entry>
                        <reference value="urn:uuid:df0b047a-6b5f-4953-a37d-e95532f540aa"/>
                        <display value="Encounter"/>
                    </entry>
                </section>
                <section>
                    <entry>
                        <reference value="urn:uuid:858bbf2d-4d6c-4bb0-a42a-85364afa7501"/>
                        <display value="Medication Order"/>
                    </entry>
                </section>
                <section>
                    <entry>
                        <reference value="urn:uuid:654e0c26-3c63-4775-acaa-2be78c77781f"/>
                        <display value="Medication Order"/>
                    </entry>
                </section>
                <section>
                    <entry>
                        <reference value="urn:uuid:1c626241-674b-4ba3-baac-fcb7769d6555"/>
                        <display value="Medication Order"/>
                    </entry>
                </section>
            </Composition>
        </resource>
    </entry>
    <entry>
        <fullUrl value="urn:uuid:df0b047a-6b5f-4953-a37d-e95532f540aa"/>
        <resource>
            <Encounter xmlns="http://hl7.org/fhir">
                <identifier>
                    <value value="urn:uuid:df0b047a-6b5f-4953-a37d-e95532f540aa"/>
                </identifier>
                <status value="finished"/>
                <class value="inpatient"/>
                <type>
                    <text value="OPD"/>
                </type>
                <patient>
                    <reference value="https://mci-showcase.twhosted.com/api/default/patients/98001462467"/>
                    <display value="98001462467"/>
                </patient>
                <participant>
                    <individual>
                        <reference value="http://hrmtest.dghs.gov.bd/api/1.0/providers/22651.json"/>
                    </individual>
                </participant>
                <period>
                    <start value="2017-04-03T15:15:02.000+05:30"/>
                </period>
                <serviceProvider>
                    <reference value="http://hrmtest.dghs.gov.bd/api/1.0/facilities/10000137.json"/>
                </serviceProvider>
            </Encounter>
        </resource>
    </entry>
    <entry>
        <fullUrl value="urn:uuid:858bbf2d-4d6c-4bb0-a42a-85364afa7501"/>
        <resource>
            <MedicationOrder xmlns="http://hl7.org/fhir">
                <extension url="https://sharedhealth.atlassian.net/wiki/display/docs/fhir-extensions#MedicationOrderAction">
                    <valueString value="DISCONTINUE"/>
                </extension>
                <identifier>
                    <value value="urn:uuid:858bbf2d-4d6c-4bb0-a42a-85364afa7501"/>
                </identifier>
                <dateWritten value="2017-04-04T14:41:20+05:30"/>
                <status value="stopped"/>
                <dateEnded value="2017-04-04T14:41:20.000+05:30"/>
                <patient>
                    <reference value="https://mci-showcase.twhosted.com/api/default/patients/98001462467"/>
                    <display value="98001462467"/>
                </patient>
                <prescriber>
                    <reference value="http://hrmtest.dghs.gov.bd/api/1.0/providers/22651.json"/>
                </prescriber>
                <encounter>
                    <reference value="urn:uuid:df0b047a-6b5f-4953-a37d-e95532f540aa"/>
                </encounter>
                <medicationCodeableConcept>
                    <coding>
                        <system value="https://tr-showcase.twhosted.com/openmrs/ws/rest/v1/tr/drugs/d2d9213f-878d-11e5-95dd-005056b0145c"/>
                        <code value="d2d9213f-878d-11e5-95dd-005056b0145c"/>
                        <display value="Paracetamol Tablet 500 mg"/>
                    </coding>
                </medicationCodeableConcept>
                <dosageInstruction>
                    <extension url="https://sharedhealth.atlassian.net/wiki/display/docs/fhir-extensions#DosageInstructionCustomDosage">
                        <valueString value="{&quot;morningDose&quot;:1.0,&quot;eveningDose&quot;:2.0}"/>
                    </extension>
                    <timing>
                        <extension url="https://sharedhealth.atlassian.net/wiki/display/docs/fhir-extensions#TimingScheduledDate">
                            <valueDateTime value="2017-04-04T14:41:20.000+05:30"/>
                        </extension>
                        <repeat>
                            <boundsQuantity>
                                <value value="2"/>
                                <system value="http://unitsofmeasure.org"/>
                                <code value="d"/>
                            </boundsQuantity>
                        </repeat>
                        <code>
                            <coding>
                                <system value="http://hl7.org/fhir/v3/GTSAbbreviation"/>
                                <code value="BID"/>
                            </coding>
                        </code>
                    </timing>
                    <asNeededBoolean value="false"/>
                    <route>
                        <coding>
                            <system value="https://tr-showcase.twhosted.com/openmrs/ws/rest/v1/tr/vs/Route-of-Administration"/>
                            <code value="_OralRoute"/>
                            <display value="OralRoute"/>
                        </coding>
                    </route>
                    <doseQuantity>
                        <unit value="Tablet dose form"/>
                        <system value="https://tr-showcase.twhosted.com/openmrs/ws/rest/v1/tr/vs/Medication-Forms"/>
                        <code value="385055001"/>
                    </doseQuantity>
                </dosageInstruction>
                <dispenseRequest>
                    <quantity>
                        <value value="6.0"/>
                        <unit value="Tablet dose form"/>
                    </quantity>
                </dispenseRequest>
                <priorPrescription>
                    <reference value="urn:uuid:1c626241-674b-4ba3-baac-fcb7769d6555"/>
                </priorPrescription>
                <notes>
                    <text value="Some Notes"/>
                </notes>
            </MedicationOrder>
        </resource>
    </entry>
    <entry>
        <fullUrl value="urn:uuid:654e0c26-3c63-4775-acaa-2be78c77781f"/>
        <resource>
            <MedicationOrder xmlns="http://hl7.org/fhir">
                <extension url="https://sharedhealth.atlassian.net/wiki/display/docs/fhir-extensions#MedicationOrderAction">
                    <valueString value="NEW"/>
                </extension>
                <identifier>
                    <value value="urn:uuid:654e0c26-3c63-4775-acaa-2be78c77781f"/>
                </identifier>
                <dateWritten value="2017-04-04T14:38:28+05:30"/>
                <status value="active"/>
                <patient>
                    <reference value="https://mci-showcase.twhosted.com/api/default/patients/98001462467"/>
                    <display value="98001462467"/>
                </patient>
                <prescriber>
                    <reference value="http://hrmtest.dghs.gov.bd/api/1.0/providers/22651.json"/>
                </prescriber>
                <encounter>
                    <reference value="urn:uuid:df0b047a-6b5f-4953-a37d-e95532f540aa"/>
                </encounter>
                <medicationCodeableConcept>
                    <coding>
                        <system value="https://tr-showcase.twhosted.com/openmrs/ws/rest/v1/tr/drugs/d2d98d73-878d-11e5-95dd-005056b0145c"/>
                        <code value="d2d98d73-878d-11e5-95dd-005056b0145c"/>
                        <display value="Paracetamol Suspension (120 mg/ 5 ml) 60 ml"/>
                    </coding>
                </medicationCodeableConcept>
                <dosageInstruction>
                    <timing>
                        <extension url="https://sharedhealth.atlassian.net/wiki/display/docs/fhir-extensions#TimingScheduledDate">
                            <valueDateTime value="2017-04-06T00:00:00.000+05:30"/>
                        </extension>
                        <repeat>
                            <boundsQuantity>
                                <value value="1"/>
                                <system value="http://unitsofmeasure.org"/>
                                <code value="d"/>
                            </boundsQuantity>
                            <frequency value="2"/>
                            <period value="1"/>
                            <periodUnits value="d"/>
                        </repeat>
                    </timing>
                    <asNeededBoolean value="false"/>
                    <route>
                        <coding>
                            <system value="https://tr-showcase.twhosted.com/openmrs/ws/rest/v1/tr/vs/Route-of-Administration"/>
                            <code value="_OralRoute"/>
                            <display value="OralRoute"/>
                        </coding>
                    </route>
                    <doseQuantity>
                        <value value="1"/>
                        <unit value="Teaspoonful - unit of product"/>
                        <system value="https://tr-showcase.twhosted.com/openmrs/ws/rest/v1/tr/vs/Medication-Package-Forms"/>
                        <code value="415703001"/>
                    </doseQuantity>
                </dosageInstruction>
                <dispenseRequest>
                    <quantity>
                        <value value="2.0"/>
                        <unit value="Teaspoonful - unit of product"/>
                    </quantity>
                </dispenseRequest>
                <notes>
                    <text value="Some Notes"/>
                </notes>
            </MedicationOrder>
        </resource>
    </entry>
    <entry>
        <fullUrl value="urn:uuid:1c626241-674b-4ba3-baac-fcb7769d6555"/>
        <resource>
            <MedicationOrder xmlns="http://hl7.org/fhir">
                <extension url="https://sharedhealth.atlassian.net/wiki/display/docs/fhir-extensions#MedicationOrderAction">
                    <valueString value="NEW"/>
                </extension>
                <identifier>
                    <value value="urn:uuid:1c626241-674b-4ba3-baac-fcb7769d6555"/>
                </identifier>
                <dateWritten value="2017-04-04T14:39:09+05:30"/>
                <status value="stopped"/>
                <dateEnded value="2017-04-04T14:41:19.000+05:30"/>
                <patient>
                    <reference value="https://mci-showcase.twhosted.com/api/default/patients/98001462467"/>
                    <display value="98001462467"/>
                </patient>
                <prescriber>
                    <reference value="http://hrmtest.dghs.gov.bd/api/1.0/providers/22651.json"/>
                </prescriber>
                <encounter>
                    <reference value="urn:uuid:df0b047a-6b5f-4953-a37d-e95532f540aa"/>
                </encounter>
                <medicationCodeableConcept>
                    <coding>
                        <system value="https://tr-showcase.twhosted.com/openmrs/ws/rest/v1/tr/drugs/d2d9213f-878d-11e5-95dd-005056b0145c"/>
                        <code value="d2d9213f-878d-11e5-95dd-005056b0145c"/>
                        <display value="Paracetamol Tablet 500 mg"/>
                    </coding>
                </medicationCodeableConcept>
                <dosageInstruction>
                    <extension url="https://sharedhealth.atlassian.net/wiki/display/docs/fhir-extensions#DosageInstructionCustomDosage">
                        <valueString value="{&quot;morningDose&quot;:1.0,&quot;eveningDose&quot;:2.0}"/>
                    </extension>
                    <timing>
                        <extension url="https://sharedhealth.atlassian.net/wiki/display/docs/fhir-extensions#TimingScheduledDate">
                            <valueDateTime value="2017-04-06T00:00:00.000+05:30"/>
                        </extension>
                        <repeat>
                            <boundsQuantity>
                                <value value="2"/>
                                <system value="http://unitsofmeasure.org"/>
                                <code value="d"/>
                            </boundsQuantity>
                        </repeat>
                        <code>
                            <coding>
                                <system value="http://hl7.org/fhir/v3/GTSAbbreviation"/>
                                <code value="BID"/>
                            </coding>
                        </code>
                    </timing>
                    <asNeededBoolean value="false"/>
                    <route>
                        <coding>
                            <system value="https://tr-showcase.twhosted.com/openmrs/ws/rest/v1/tr/vs/Route-of-Administration"/>
                            <code value="_OralRoute"/>
                            <display value="OralRoute"/>
                        </coding>
                    </route>
                    <doseQuantity>
                        <unit value="Tablet dose form"/>
                        <system value="https://tr-showcase.twhosted.com/openmrs/ws/rest/v1/tr/vs/Medication-Forms"/>
                        <code value="385055001"/>
                    </doseQuantity>
                </dosageInstruction>
                <dispenseRequest>
                    <quantity>
                        <value value="6.0"/>
                        <unit value="Tablet dose form"/>
                    </quantity>
                </dispenseRequest>
                <notes>
                    <text value="Some Notes"/>
                </notes>
            </MedicationOrder>
        </resource>
    </entry>
</Bundle>
