<Bundle xmlns="http://hl7.org/fhir">
    <id value="d0cc544e-e748-4111-80ec-3f6448c72f2d"/>
    <meta>
        <lastUpdated value="2016-02-11T16:34:26.000+05:30"/>
    </meta>
    <type value="collection"/>
    <entry>
        <fullUrl value="urn:uuid:103c5ece-e640-4849-ac20-5936bd668512"/>
        <resource>
            <Composition xmlns="http://hl7.org/fhir">
                <identifier>
                    <value value="urn:uuid:103c5ece-e640-4849-ac20-5936bd668512"/>
                </identifier>
                <date value="2016-02-11T16:34:26.000+05:30"/>
                <type>
                    <coding>
                        <system value="http://hl7.org/fhir/vs/doc-typecodes"/>
                        <code value="51899-3"/>
                        <display value="Details Document"/>
                    </coding>
                </type>
                <title value="Patient Clinical Encounter"/>
                <status value="final"/>
                <confidentiality value="N"/>
                <subject>
                    <reference value="http://172.18.46.199:8081/api/default/patients/98001084634"/>
                    <display value="98001084634"/>
                </subject>
                <author>
                    <reference value="http://172.18.46.199:8084/api/1.0/facilities/10019842.json"/>
                </author>
                <encounter>
                    <reference value="urn:uuid:08435da7-d37e-4b63-87be-15f353eff110"/>
                </encounter>
                <section>
                    <entry>
                        <reference value="urn:uuid:08435da7-d37e-4b63-87be-15f353eff110"/>
                        <display value="Encounter"/>
                    </entry>
                </section>
                <section>
                    <entry>
                        <reference value="urn:uuid:ffdb67f5-eff8-4f18-a99f-c8560740166c"/>
                        <display value="Test A"/>
                    </entry>
                </section>
                <section>
                    <entry>
                        <reference value="urn:uuid:d18bd9a9-5636-47e6-ba18-e19920898204"/>
                        <display value="Diagnostic Report"/>
                    </entry>
                </section>
                <section>
                    <entry>
                        <reference value="urn:uuid:7479b0ae-9c95-4ce6-ba3c-6637bd0e72f1"/>
                        <display value="Procedure"/>
                    </entry>
                </section>
            </Composition>
        </resource>
    </entry>
    <entry>
        <fullUrl value="urn:uuid:08435da7-d37e-4b63-87be-15f353eff110"/>
        <resource>
            <Encounter xmlns="http://hl7.org/fhir">
                <identifier>
                    <value value="urn:uuid:08435da7-d37e-4b63-87be-15f353eff110"/>
                </identifier>
                <status value="finished"/>
                <class value="outpatient"/>
                <type>
                    <text value="OPD"/>
                </type>
                <patient>
                    <reference value="http://172.18.46.199:8081/api/default/patients/98001084634"/>
                    <display value="98001084634"/>
                </patient>
                <participant>
                    <individual>
                        <reference value="http://172.18.46.199:8084/api/1.0/providers/24.json"/>
                    </individual>
                </participant>
                <serviceProvider>
                    <reference value="http://172.18.46.199:8084/api/1.0/facilities/10019842.json"/>
                </serviceProvider>
            </Encounter>
        </resource>
    </entry>
    <entry>
        <fullUrl value="urn:uuid:ffdb67f5-eff8-4f18-a99f-c8560740166c"/>
        <resource>
            <Observation xmlns="http://hl7.org/fhir">
                <identifier>
                    <value value="urn:uuid:ffdb67f5-eff8-4f18-a99f-c8560740166c"/>
                </identifier>
                <status value="final"/>
                <code>
                    <coding>
                        <display value="Test A"/>
                    </coding>
                </code>
                <subject>
                    <reference value="http://172.18.46.199:8081/api/default/patients/98001084634"/>
                    <display value="98001084634"/>
                </subject>
                <encounter>
                    <reference value="urn:uuid:08435da7-d37e-4b63-87be-15f353eff110"/>
                </encounter>
                <valueString value="result is ok"/>
            </Observation>
        </resource>
    </entry>
    <entry>
        <fullUrl value="urn:uuid:d18bd9a9-5636-47e6-ba18-e19920898204"/>
        <resource>
            <DiagnosticReport xmlns="http://hl7.org/fhir">
                <identifier>
                    <value value="urn:uuid:d18bd9a9-5636-47e6-ba18-e19920898204"/>
                </identifier>
                <status value="final"/>
                <code>
                    <coding>
                        <display value="Test A"/>
                    </coding>
                </code>
                <subject>
                    <reference value="http://172.18.46.199:8081/api/default/patients/98001084634"/>
                    <display value="98001084634"/>
                </subject>
                <encounter>
                    <reference value="urn:uuid:08435da7-d37e-4b63-87be-15f353eff110"/>
                </encounter>
                <effectiveDateTime value="2016-02-11T16:34:26.000+05:30"/>
                <issued value="2016-02-11T16:34:26.000+05:30"/>
                <performer>
                    <reference value="http://172.18.46.199:8084/api/1.0/providers/24.json"/>
                </performer>
                <result>
                    <reference value="urn:uuid:ffdb67f5-eff8-4f18-a99f-c8560740166c"/>
                    <display value="Erythrocyte sedimentation rate"/>
                </result>
                <codedDiagnosis>
                    <coding>
                        <display value="Viral pneumonia 406475"/>
                    </coding>
                </codedDiagnosis>
            </DiagnosticReport>
        </resource>
    </entry>
    <entry>
        <fullUrl value="urn:uuid:7479b0ae-9c95-4ce6-ba3c-6637bd0e72f1"/>
        <resource>
            <Procedure xmlns="http://hl7.org/fhir">
                <identifier>
                    <value value="urn:uuid:140a951a-0964-4eaf-ad7f-3d850b21f126"/>
                </identifier>
                <subject>
                    <reference value="http://172.18.46.199:8081/api/default/patients/98001084634"/>
                    <display value="98001084634"/>
                </subject>
                <encounter>
                    <reference value="urn:uuid:08435da7-d37e-4b63-87be-15f353eff110"/>
                </encounter>
                <status value="in-progress"/>
                <code>
                    <coding>
                        <system value="http://tr.com"/>
                        <code value="Osteopathic-Treatment-of-Abdomen"/>
                        <display value="ProcedureAnswer1"/>
                    </coding>
                </code>
                <performedPeriod>
                    <start value="2016-02-04T00:00:00.000+05:30"/>
                    <end value="2016-02-11T00:00:00.000+05:30"/>
                </performedPeriod>
                <followUp>
                    <coding>
                        <system value="http://tr.com"/>
                        <code value="385669000"/>
                        <display value="Change of dressing"/>
                    </coding>
                </followUp>
                <outcome>
                    <coding>
                        <system value="http://tr.com"/>
                        <code value="SUCCESS"/>
                        <display value="Procedure Outcome Successful"/>
                    </coding>
                </outcome>
                <report>
                    <reference value="urn:uuid:d18bd9a9-5636-47e6-ba18-e19920898204"/>
                    <display value="Diagnostic Report"/>
                </report>
                <request>
                    <reference value="http://172.18.46.156:8081/patients/HID123/encounters/shr-enc-id-1#ProcedureRequest/procedure-req-id"/>
                </request>
                <notes>
                    <text value="procedure notes"/>
                </notes>
                <performer>
                    <actor>
                        <reference value="http://172.18.46.199:8084/api/1.0/providers/24.json"/>
                    </actor>
                </performer>
            </Procedure>
        </resource>
    </entry>
</Bundle>
