<Bundle xmlns="http://hl7.org/fhir">
    <id value="6362a4dc-eca4-4320-9db1-2df461a4c013"/>
    <meta>
        <lastUpdated value="2015-08-25T17:25:34.000+05:30"/>
    </meta>
    <type value="collection"/>
    <entry>
        <fullUrl value="urn:uuid:a2d0468c-aea7-4413-af54-7209adbd32d0"/>
        <resource>
            <Composition xmlns="http://hl7.org/fhir">
                <id value="a2d0468c-aea7-4413-af54-7209adbd32d0"/>
                <identifier>
                    <value value="urn:uuid:a2d0468c-aea7-4413-af54-7209adbd32d0"/>
                </identifier>
                <date value="2015-08-25T17:25:34.000+05:30"/>
                <type>
                    <coding>
                        <system value="http://hl7.org/fhir/vs/doc-typecodes"/>
                        <code value="51899-3"/>
                        <display value="Details Document"/>
                    </coding>
                </type>
                <title value="Patient Clinical Encounter" />
                <status value="final"/>
                <confidentiality value="N"/>
                <subject>
                    <reference value="http://mci.com/patients/98104750156"/>
                    <display value="98104750156"/>
                </subject>
                <author>
                    <reference value="http://www.fr.com/facilities/10019841.json"/>
                </author>
                <encounter>
                    <reference value="urn:uuid:de711fc8-3b1b-4089-813e-1ae8b3936ea8"/>
                </encounter>
                <section>
                    <entry>
                        <reference value="urn:uuid:de711fc8-3b1b-4089-813e-1ae8b3936ea8"/>
                        <display value="Encounter"/>
                    </entry>
                </section>
                <section>
                    <entry>
                        <reference value="urn:uuid:4eb2959f-6bd6-4f97-a7cc-e58bfe01b9fd"/>
                        <display value="Family History Template"/>
                    </entry>
                </section>
            </Composition>
        </resource>
    </entry>
    <entry>
        <fullUrl value="urn:uuid:de711fc8-3b1b-4089-813e-1ae8b3936ea8"/>
        <resource>
            <Encounter xmlns="http://hl7.org/fhir">
                <id value="de711fc8-3b1b-4089-813e-1ae8b3936ea8"/>
                <identifier>
                    <value value="urn:uuid:de711fc8-3b1b-4089-813e-1ae8b3936ea8"/>
                </identifier>
                <status value="finished"/>
                <class value="outpatient"/>
                <type>
                    <text value="OPD"/>
                </type>
                <patient>
                    <reference value="http://mci.com/patients/98104750156"/>
                    <display value="98104750156"/>
                </patient>
                <participant>
                    <individual>
                        <reference value="http://www.pr.com/providers/812.json"/>
                    </individual>
                </participant>
                <serviceProvider>
                    <reference value="http://www.fr.com/facilities/10019841.json"/>
                </serviceProvider>
            </Encounter>
        </resource>
    </entry>
    <entry>
        <fullUrl value="urn:uuid:4eb2959f-6bd6-4f97-a7cc-e58bfe01b9fd"/>
        <resource>
            <FamilyMemberHistory xmlns="http://hl7.org/fhir">
                <id value="4eb2959f-6bd6-4f97-a7cc-e58bfe01b9fd"/>
                <identifier>
                    <value value="urn:uuid:4eb2959f-6bd6-4f97-a7cc-e58bfe01b9fd"/>
                </identifier>
                <patient>
                    <reference value="http://mci.com/patients/98104750156"/>
                    <display value="98104750156"/>
                </patient>
                <status value="partial"/>
                <relationship>
                    <coding>
                        <system value="http://tr.com"/>
                        <code value="FTH"/>
                        <display value="father"/>
                    </coding>
                </relationship>
                <bornDate value="2074-12-01"/>
                <condition>
                    <code>
                        <coding>
                            <system value="http://tr.com"/>
                            <code value="3"/>
                            <display value="Back Pain"/>
                        </coding>
                    </code>
                    <onsetQuantity>
                        <value value="5.0"/>
                        <unit value="a"/>
                        <system value="http://unitsofmeasure.org"/>
                    </onsetQuantity>
                    <note>
                        <text value="Some notes"/>
                    </note>
                </condition>
            </FamilyMemberHistory>
        </resource>
    </entry>
</Bundle>
